Folder: charts-frontend/public

File: Template.csv
Temperature,Frequency,Storage Modulus
30,0.1,360.87
30,0.127,367.94
30,0.16,375.45
30,0.203,383.28
30,0.257,391.07
30,0.326,398.67
30,0.412,406.21
30,0.522,413.59
30,0.661,420.81
30,0.838,427.88
30,1.06,434.78
30,1.34,441.49
30,1.7,448.01
30,2.15,454.32
30,2.73,460.43
30,3.46,466.3
30,4.38,471.95
30,5.54,477.41
30,7.02,482.67
30,8.89,487.79
40,0.1,272.4
40,0.127,276.74
40,0.16,283.82
40,0.203,291.26
40,0.257,298.64
40,0.326,305.91
40,0.412,312.92
40,0.522,319.81
40,0.661,326.63
40,0.838,333.36
40,1.06,339.99
40,1.34,346.52
40,1.7,352.95
40,2.15,359.29
40,2.73,365.49
40,3.46,371.55
40,4.38,377.24
40,5.54,383.08
40,7.02,389.07
40,8.89,394.98
50,0.1,201.89
50,0.127,206.47
50,0.16,212.89
50,0.203,219.47
50,0.257,225.77
50,0.326,232.01
50,0.412,237.95
50,0.522,243.85
50,0.661,249.75
50,0.838,255.61
50,1.06,261.44
50,1.34,267.51
50,1.7,273.04
50,2.15,278.79
50,2.73,284.53
50,3.46,290.22
50,4.38,295.92
50,5.54,301.68
50,7.02,307.53
50,8.89,313.26
60,0.1,149.45
60,0.127,153.7
60,0.16,159.26
60,0.203,164.88
60,0.257,170.31
60,0.326,175.42
60,0.412,180.45
60,0.522,185.4
60,0.661,190.33
60,0.838,195.22
60,1.06,200.13
60,1.34,205.05
60,1.7,209.97
60,2.15,214.94
60,2.73,219.93
60,3.46,225.06
60,4.38,230.13
60,5.54,235.23
60,7.02,240.42
60,8.89,245.46
70,0.1,107.21
70,0.127,110.78
70,0.16,115.5
70,0.203,120.28
70,0.257,124.93
70,0.326,129.32
70,0.412,133.61
70,0.522,137.78
70,0.661,141.94
70,0.838,146.05
70,1.06,150.15
70,1.34,154.25
70,1.7,158.36
70,2.15,162.5
70,2.73,166.67
70,3.46,170.89
70,4.38,175.18
70,5.54,179.57
70,7.02,184.08
70,8.89,188.48
80,0.1,73.105
80,0.127,75.779
80,0.16,79.415
80,0.203,83.212
80,0.257,86.957
80,0.326,90.567
80,0.412,94.157
80,0.522,97.666
80,0.661,101.15
80,0.838,104.62
80,1.06,108.1
80,1.34,111.55
80,1.7,114.99
80,2.15,118.46
80,2.73,121.94
80,3.46,125.48
80,4.38,129.08
80,5.54,132.78
80,7.02,136.65
80,8.89,140.39
90,0.1,48.012
90,0.127,49.79
90,0.16,52.251
90,0.203,54.915
90,0.257,57.561
90,0.326,60.252
90,0.412,62.95
90,0.522,65.614
90,0.661,68.343
90,0.838,71.104
90,1.06,73.891
90,1.34,76.703
90,1.7,79.531
90,2.15,82.385
90,2.73,85.266
90,3.46,88.201
90,4.38,91.196
90,5.54,94.302
90,7.02,97.585
90,8.89,100.75
100,0.1,31.165
100,0.127,32.248
100,0.16,33.81
100,0.203,35.525
100,0.257,37.252
100,0.326,39.035
100,0.412,40.833
100,0.522,42.609
100,0.661,44.497
100,0.838,46.44
100,1.06,48.44
100,1.34,50.514
100,1.7,52.64
100,2.15,54.816
100,2.73,57.061
100,3.46,59.369
100,4.38,61.761
100,5.54,64.287
100,7.02,66.795
100,8.89,69.589
110,0.1,19.677
110,0.127,20.202
110,0.16,21.155
110,0.203,22.21
110,0.257,23.272
110,0.326,24.358
110,0.412,25.461
110,0.522,26.598
110,0.661,27.783
110,0.838,29.03
110,1.06,30.328
110,1.34,31.696
110,1.7,33.126
110,2.15,34.625
110,2.73,36.201
110,3.46,37.863
110,4.38,39.639
110,5.54,41.552
110,7.02,43.703
110,8.89,45.759
120,0.1,9.1901
120,0.127,8.9728
120,0.16,9.3675
120,0.203,9.9519
120,0.257,10.552
120,0.326,11.152
120,0.412,11.763
120,0.522,12.377
120,0.661,13.018
120,0.838,13.677
120,1.06,14.388
120,1.34,15.125
120,1.7,15.91
120,2.15,16.737
120,2.73,17.632
120,3.46,18.601
120,4.38,19.67
120,5.54,20.888
120,7.02,22.329
120,8.89,23.697
120,10,24.64